,trial,block,stim,reference,is_same,in_mem,time_start,feedback,time_end,key,resp,ifcorrect,RT
0,1,1,0,True,False,0,26.36648550000973,True,28.848051300039515,j,yes,True,0.6712095000548288
1,2,1,0,True,True,0,29.21646710007917,True,31.81429550005123,j,yes,True,0.7828662999672815
2,3,1,0,True,True,0,32.177102599991485,True,34.580392500036396,j,yes,True,0.5973394999746233
3,4,1,0,True,True,0,34.94419760000892,True,37.28009750007186,j,yes,True,0.526715400046669
4,5,1,1,True,False,0,37.64323290006723,True,40.07979280001018,f,no,True,0.6232750000199303
5,6,1,0,True,False,1,40.44284210004844,True,42.82910970004741,j,yes,False,0.5787398000247777
6,7,1,0,False,True,0,43.2206488000229,True,46.91179240006022,f,no,False,1.8849245999008417
7,8,1,1,False,False,0,47.26732490002178,True,50.111819399986416,f,no,True,1.0218663999112323
8,9,1,1,False,False,0,50.474415600067005,True,52.97816260007676,f,no,True,0.6909085999941453
9,10,1,0,False,True,0,53.34129540005233,True,56.24410690006334,j,yes,True,1.0866342999506742
10,11,1,0,False,True,0,56.60745360003784,True,58.94429000001401,j,yes,True,0.5172682999400422
11,12,1,1,True,False,0,59.30698840005789,True,63.860053100041114,f,no,True,2.736492099938914
12,13,1,0,True,False,1,64.22312060010154,True,67.44311380002182,f,no,True,1.408762599923648
13,14,1,1,False,False,0,67.80597540002782,True,70.6927977000596,f,no,True,1.0681106999982148
14,15,1,1,True,False,0,71.05696830002125,True,74.72516250004992,f,no,True,1.8608512999489903
15,16,1,1,True,True,1,75.08780229999684,True,78.00811130006332,j,yes,True,1.099498999887146
16,17,1,0,True,False,1,78.37135930010118,True,80.97371610009577,f,no,True,0.7967015999602154
17,18,1,1,True,False,0,81.33772080007475,True,84.24098450003657,f,no,True,1.0842013000510633
18,19,1,0,True,False,1,84.60394460009411,True,87.29026540007908,f,no,True,0.8727491999743506
19,20,1,0,True,True,0,87.65271870000288,True,90.72315930004697,j,yes,True,1.2606537999818102
20,21,1,0,False,True,0,91.08678000001237,True,93.62273350008763,j,yes,True,0.7196463999571279
21,22,1,1,True,False,0,93.9853913000552,True,96.87270880001597,j,yes,False,1.0662663000402972
22,23,1,0,True,False,1,97.2352526000468,True,100.78843360010069,f,no,True,1.7444772999733686
23,24,1,1,True,False,0,101.15169369999785,True,103.83740080008283,f,no,True,0.8788106000283733
24,25,1,1,True,True,1,104.19502240000293,True,106.50423650001176,f,no,False,0.4897479999344796
25,26,1,1,True,True,1,106.86716310004704,True,109.57035500009079,j,yes,True,0.8944644000148401
26,27,1,1,True,True,1,109.9340354000451,True,112.25365590001456,j,yes,True,0.5095585000235587
27,28,1,0,True,False,1,112.61617240007035,True,115.28690960002132,f,no,True,0.8525289000244811
28,29,1,0,True,True,0,115.65057759999763,True,118.6693791000871,j,yes,True,1.2019941000035033
29,30,1,1,True,False,0,119.0323558000382,True,121.38619550003204,f,no,True,0.5388996000401676
30,31,1,1,False,True,1,121.74895700009074,True,124.1685002000304,j,yes,True,0.6072771999752149
31,32,1,1,False,True,1,124.53158589999657,True,126.76832840009592,j,yes,True,0.41990640002768487
32,33,1,0,False,False,1,127.13146810000762,True,129.76808619999792,f,no,True,0.8276282000588253
33,34,1,1,False,True,1,130.13058830006048,True,132.46792120009195,j,yes,True,0.5181789000052959
34,35,1,0,True,False,1,132.86036430008244,True,135.63388189999387,f,no,True,0.9670986999990419
35,36,1,0,True,True,0,135.9975398000097,True,138.48340940009803,j,yes,True,0.6789161999477074
36,37,1,1,True,False,0,138.8461153000826,True,141.25033370009623,f,no,True,0.586499199969694
37,38,1,1,True,True,1,141.60749140009284,True,144.34929390007164,j,yes,True,0.9307768999133259
38,39,1,0,True,False,1,144.71255759999622,True,147.11743610003032,f,no,True,0.5820673999842256
39,40,1,1,True,False,0,147.47863280004822,True,149.94859980000183,j,yes,False,0.6518018000060692
40,41,1,1,True,True,1,150.3122501000762,True,152.84825790009927,j,yes,True,0.7239728999556974
41,42,1,1,False,True,1,153.21143030002713,True,155.83103500003926,j,yes,True,0.8055658999364823
42,43,1,1,True,True,1,156.1944065000862,True,158.81404010008555,j,yes,True,0.8140956999268383
43,44,1,0,True,False,1,159.17733510001563,True,161.99638910009526,f,no,True,1.001111299963668
44,45,1,0,True,True,0,162.3539151001023,True,164.8793122000061,j,yes,True,0.7143658999120817
45,46,1,0,True,True,0,165.23688560002483,True,167.67957000003662,j,yes,True,0.6227417000336573
46,47,1,1,True,False,0,168.04286300006788,True,170.44626910006627,f,no,True,0.5855653999606147
47,48,1,1,False,True,1,170.80928080005106,True,173.26215299998876,j,yes,True,0.6385384999448434
48,49,1,0,True,False,1,173.62542010005563,True,176.17848220001906,f,no,True,0.7437528999289498
49,50,1,0,False,True,0,176.54116800008342,True,179.1281901000766,j,yes,True,0.7782995000015944
50,51,1,0,False,True,0,179.49152690009214,True,181.9774170999881,j,yes,True,0.6651553999399766
51,52,1,0,False,True,0,182.33674570010044,True,185.44427670002915,j,yes,True,1.287457500002347
52,53,1,1,False,False,0,185.8073110000696,True,188.2934663000051,f,no,True,0.672094100038521
53,54,1,0,False,True,0,188.6559424001025,True,192.6931462000357,f,no,False,2.2173801000462845
54,55,1,1,False,False,0,193.05586130009033,True,196.2258210000582,f,no,True,1.3594979000044987
55,56,1,1,True,False,0,196.58896419999655,True,199.37532830005512,j,yes,False,0.9741023000096902
56,57,1,0,False,False,1,199.73804289998952,True,203.35815620003268,f,no,True,1.8065130000468343
57,58,1,0,False,False,1,203.7222252000356,True,207.2741909000324,f,no,True,1.7477995000081137
58,59,1,0,False,False,1,207.63588399998844,True,210.0574882000219,f,no,True,0.6068729000398889
59,60,1,1,True,True,1,210.42074660002254,True,213.52392090007197,j,yes,True,1.2856368999928236
